"CBcond","Gamble","X_location","domain","dominated","first_gamble_trial","game_winnings","orderA","orderB","p","primary_odds","primary_stakes","primary_winnings","q","real_winnings","response","response_time","risk_selected","second_gamble_trial","secondary_odds","secondary_stakes","secondary_winnings","version","x","y"
"3","69","3","2","no","39","NA","7","2","70","NA","NA","NA","90","NA","l","25012","1","130","NA","NA","NA","3","400","300"
"3","75","2","2","yes","39","NA","7","2","40","NA","NA","NA","50","NA","l","18266","0","130","NA","NA","NA","2","200","400"
"3","60","3","2","no","39","NA","7","2","40","NA","NA","NA","50","NA","p","20244","0","130","NA","NA","NA","3","400","300"
"3","64","4","2","no","39","NA","7","2","50","NA","NA","NA","80","NA","p","29640","0","130","NA","NA","NA","4","300","200"
"3","38","3","2","no","39","NA","7","2","10","NA","NA","NA","30","NA","l","20260","1","130","NA","NA","NA","3","500","200"
"3","15","1","2","no","39","NA","7","2","30","NA","NA","NA","60","NA","p","14168","1","130","NA","NA","NA","1","400","200"
"3","52","2","2","no","39","NA","7","2","30","NA","NA","NA","100","NA","p","17350","1","130","NA","NA","NA","2","300","100"
"3","65","1","2","no","39","NA","7","2","50","NA","NA","NA","70","NA","l","23422","0","130","NA","NA","NA","1","400","300"
"3","20","2","2","no","39","NA","7","2","40","NA","NA","NA","80","NA","p","21267","1","130","NA","NA","NA","2","400","200"
"3","41","1","2","no","39","NA","7","2","20","NA","NA","NA","50","NA","l","20455","0","130","NA","NA","NA","1","200","100"
"3","16","1","2","no","39","NA","7","2","30","NA","NA","NA","40","NA","p","24099","1","130","NA","NA","NA","1","400","300"
"3","10","2","2","no","39","NA","7","2","20","NA","NA","NA","40","NA","p","20821","1","130","NA","NA","NA","2","400","200"
"3","2","4","2","no","39","NA","7","2","10","NA","NA","NA","30","NA","l","8403","1","130","NA","NA","NA","4","300","100"
"3","14","4","2","no","39","NA","7","2","30","NA","NA","NA","90","NA","l","4522","1","130","NA","NA","NA","4","300","100"
"3","25","1","2","no","39","NA","7","2","60","NA","NA","NA","90","NA","p","3257","1","130","NA","NA","NA","1","300","200"
"3","23","4","2","no","39","NA","7","2","50","NA","NA","NA","100","NA","l","7597","1","130","NA","NA","NA","4","200","100"
"3","39","1","2","no","39","NA","7","2","10","NA","NA","NA","20","NA","p","5987","1","130","NA","NA","NA","1","500","300"
"3","66","1","2","no","39","NA","7","2","50","NA","NA","NA","80","NA","p","2609","1","130","NA","NA","NA","1","500","300"
"3","51","1","2","no","39","NA","7","2","30","NA","NA","NA","80","NA","p","1670","1","130","NA","NA","NA","1","300","100"
"3","5","2","2","no","39","NA","7","2","10","NA","NA","NA","50","NA","p","4035","1","130","NA","NA","NA","2","500","100"
"3","63","4","2","no","39","NA","7","2","50","NA","NA","NA","70","NA","l","1503","1","130","NA","NA","NA","4","300","200"
"3","8","2","2","no","39","NA","7","2","20","NA","NA","NA","30","NA","p","1752","1","130","NA","NA","NA","2","300","200"
"3","21","2","2","no","39","NA","7","2","40","NA","NA","NA","100","NA","p","1159","1","130","NA","NA","NA","2","500","200"
"3","59","2","2","no","39","NA","7","2","40","NA","NA","NA","90","NA","p","1503","1","130","NA","NA","NA","2","200","100"
"3","30","4","2","no","39","NA","7","2","10","NA","NA","NA","20","NA","l","1976","1","130","NA","NA","NA","4","300","100"
"3","57","3","2","no","39","NA","7","2","30","NA","NA","NA","40","NA","p","1184","0","130","NA","NA","NA","3","500","400"
"3","44","1","2","no","39","NA","7","2","20","NA","NA","NA","70","NA","p","2078","1","130","NA","NA","NA","1","400","100"
"3","62","3","2","no","39","NA","7","2","50","NA","NA","NA","90","NA","l","3153","1","130","NA","NA","NA","3","200","100"
"3","3","3","2","no","39","NA","7","2","10","NA","NA","NA","40","NA","l","1167","1","130","NA","NA","NA","3","400","100"
"3","73","4","2","yes","39","NA","7","2","60","NA","NA","NA","70","NA","l","6128","1","130","NA","NA","NA","4","200","400"
"3","35","3","2","no","39","NA","7","2","10","NA","NA","NA","40","NA","p","2029","0","130","NA","NA","NA","3","500","100"
"3","71","4","2","yes","39","NA","7","2","80","NA","NA","NA","90","NA","l","3220","1","130","NA","NA","NA","4","200","400"
"3","32","2","2","no","39","NA","7","2","10","NA","NA","NA","20","NA","p","1449","1","130","NA","NA","NA","2","300","200"
"3","1","3","2","no","39","NA","7","2","10","NA","NA","NA","20","NA","p","907","0","130","NA","NA","NA","3","200","100"
"3","29","4","2","no","39","NA","7","2","10","NA","NA","NA","30","NA","l","1550","1","130","NA","NA","NA","4","200","100"
"3","27","3","2","no","39","NA","7","2","60","NA","NA","NA","100","NA","l","1709","1","130","NA","NA","NA","3","500","300"
"3","47","1","2","no","39","NA","7","2","20","NA","NA","NA","90","NA","p","869","1","130","NA","NA","NA","1","500","100"
"3","33","2","2","no","39","NA","7","2","10","NA","NA","NA","30","NA","p","904","1","130","NA","NA","NA","2","400","100"
"3","54","1","2","no","39","NA","7","2","30","NA","NA","NA","50","NA","p","8993","1","130","NA","NA","NA","1","300","200"
"3","7","2","2","no","39","NA","7","2","20","NA","NA","NA","60","NA","p","5416","1","130","NA","NA","NA","2","300","100"
"3","6","3","2","no","39","NA","7","2","20","NA","NA","NA","40","NA","l","1125","1","130","NA","NA","NA","3","200","100"
"3","49","4","2","no","39","NA","7","2","30","NA","NA","NA","50","NA","l","1486","1","130","NA","NA","NA","4","200","100"
"3","42","2","2","no","39","NA","7","2","20","NA","NA","NA","50","NA","p","759","1","130","NA","NA","NA","2","300","100"
"3","43","1","2","no","39","NA","7","2","20","NA","NA","NA","70","NA","p","927","1","130","NA","NA","NA","1","300","100"
"3","68","3","2","no","39","NA","7","2","70","NA","NA","NA","100","NA","l","1103","1","130","NA","NA","NA","3","300","200"
"3","40","2","2","no","39","NA","7","2","20","NA","NA","NA","30","NA","p","2151","1","130","NA","NA","NA","2","200","100"
"3","18","1","2","no","39","NA","7","2","40","NA","NA","NA","80","NA","p","783","1","130","NA","NA","NA","1","200","100"
"3","50","2","2","no","39","NA","7","2","30","NA","NA","NA","70","NA","p","759","1","130","NA","NA","NA","2","200","100"
"3","17","4","2","no","39","NA","7","2","30","NA","NA","NA","50","NA","l","1823","1","130","NA","NA","NA","4","500","300"
"3","22","2","2","no","39","NA","7","2","40","NA","NA","NA","50","NA","p","917","1","130","NA","NA","NA","2","500","400"
"3","55","1","2","no","39","NA","7","2","30","NA","NA","NA","70","NA","p","2214","1","130","NA","NA","NA","1","500","200"
"3","61","2","2","no","39","NA","7","2","40","NA","NA","NA","70","NA","p","1138","1","130","NA","NA","NA","2","500","300"
"3","45","4","2","no","39","NA","7","2","20","NA","NA","NA","90","NA","l","1923","1","130","NA","NA","NA","4","400","100"
"3","53","4","2","no","39","NA","7","2","30","NA","NA","NA","40","NA","l","3101","1","130","NA","NA","NA","4","300","200"
"3","48","2","2","no","39","NA","7","2","20","NA","NA","NA","30","NA","p","2927","1","130","NA","NA","NA","2","500","300"
"3","37","3","2","no","39","NA","7","2","10","NA","NA","NA","20","NA","l","3975","1","130","NA","NA","NA","3","500","200"
"3","72","3","2","yes","39","NA","7","2","70","NA","NA","NA","80","NA","l","8158","1","130","NA","NA","NA","3","300","400"
"3","12","2","2","no","39","NA","7","2","20","NA","NA","NA","50","NA","p","925","1","130","NA","NA","NA","2","500","200"
"3","74","3","2","yes","39","NA","7","2","50","NA","NA","NA","60","NA","l","1463","1","130","NA","NA","NA","3","300","400"
"3","9","1","2","no","39","NA","7","2","20","NA","NA","NA","80","NA","p","633","1","130","NA","NA","NA","1","400","100"
"3","11","4","2","no","39","NA","7","2","20","NA","NA","NA","100","NA","l","694","1","130","NA","NA","NA","4","500","100"
"3","46","3","2","no","39","NA","7","2","20","NA","NA","NA","30","NA","l","895","1","130","NA","NA","NA","3","400","300"
"3","13","2","2","no","39","NA","7","2","30","NA","NA","NA","60","NA","p","1234","1","130","NA","NA","NA","2","200","100"
"3","28","1","2","no","39","NA","7","2","80","NA","NA","NA","100","NA","p","1205","1","130","NA","NA","NA","1","500","400"
"3","56","4","2","no","39","NA","7","2","30","NA","NA","NA","80","NA","l","988","1","130","NA","NA","NA","4","500","200"
"3","31","3","2","no","39","NA","7","2","10","NA","NA","NA","40","NA","l","3732","1","130","NA","NA","NA","3","300","100"
"3","70","3","2","no","39","NA","7","2","70","NA","NA","NA","90","NA","l","2090","1","130","NA","NA","NA","3","500","400"
"3","36","3","2","no","39","NA","7","2","10","NA","NA","NA","60","NA","l","862","1","130","NA","NA","NA","3","500","100"
"3","24","4","2","no","39","NA","7","2","50","NA","NA","NA","100","NA","l","1353","1","130","NA","NA","NA","4","400","200"
"3","58","3","2","no","39","NA","7","2","40","NA","NA","NA","70","NA","l","824","1","130","NA","NA","NA","3","200","100"
"3","67","4","2","no","39","NA","7","2","50","NA","NA","NA","60","NA","l","868","1","130","NA","NA","NA","4","500","400"
"3","26","1","2","no","39","NA","7","2","60","NA","NA","NA","80","NA","p","1456","1","130","NA","NA","NA","1","400","300"
"3","4","1","2","no","39","NA","7","2","10","NA","NA","NA","20","NA","p","764","1","130","NA","NA","NA","1","400","200"
"3","34","4","2","no","39","NA","7","2","10","NA","NA","NA","50","NA","l","1026","1","130","NA","NA","NA","4","400","100"
"3","19","4","2","no","39","NA","7","2","40","NA","NA","NA","60","NA","l","720","1","130","NA","NA","NA","4","300","200"
"3","26","3","1","no","39","NA","7","2","60","NA","NA","NA","80","NA","p","5469","0","130","NA","NA","NA","1","400","300"
"3","6","1","1","no","39","NA","7","2","20","NA","NA","NA","40","NA","l","742","0","130","NA","NA","NA","3","200","100"
"3","41","3","1","no","39","NA","7","2","20","NA","NA","NA","50","NA","p","767","0","130","NA","NA","NA","1","200","100"
"3","16","3","1","no","39","NA","7","2","30","NA","NA","NA","40","NA","l","438","1","130","NA","NA","NA","1","400","300"
"3","56","2","1","no","39","NA","7","2","30","NA","NA","NA","80","NA","p","946","1","130","NA","NA","NA","4","500","200"
"3","48","4","1","no","39","NA","7","2","20","NA","NA","NA","30","NA","p","3426","0","130","NA","NA","NA","2","500","300"
"3","24","2","1","no","39","NA","7","2","50","NA","NA","NA","100","NA","l","1704","0","130","NA","NA","NA","4","400","200"
"3","39","3","1","no","39","NA","7","2","10","NA","NA","NA","20","NA","p","1937","0","130","NA","NA","NA","1","500","300"
"3","61","4","1","no","39","NA","7","2","40","NA","NA","NA","70","NA","p","1209","0","130","NA","NA","NA","2","500","300"
"3","14","2","1","no","39","NA","7","2","30","NA","NA","NA","90","NA","p","1029","1","130","NA","NA","NA","4","300","100"
"3","37","1","1","no","39","NA","7","2","10","NA","NA","NA","20","NA","l","1226","0","130","NA","NA","NA","3","500","200"
"3","21","4","1","no","39","NA","7","2","40","NA","NA","NA","100","NA","p","734","0","130","NA","NA","NA","2","500","200"
"3","12","4","1","no","39","NA","7","2","20","NA","NA","NA","50","NA","p","614","0","130","NA","NA","NA","2","500","200"
"3","57","1","1","no","39","NA","7","2","30","NA","NA","NA","40","NA","l","3164","0","130","NA","NA","NA","3","500","400"
"3","38","1","1","no","39","NA","7","2","10","NA","NA","NA","30","NA","l","697","0","130","NA","NA","NA","3","500","200"
"3","45","2","1","no","39","NA","7","2","20","NA","NA","NA","90","NA","l","2546","0","130","NA","NA","NA","4","400","100"
"3","62","1","1","no","39","NA","7","2","50","NA","NA","NA","90","NA","l","4066","0","130","NA","NA","NA","3","200","100"
"3","54","3","1","no","39","NA","7","2","30","NA","NA","NA","50","NA","p","5877","0","130","NA","NA","NA","1","300","200"
"3","44","3","1","no","39","NA","7","2","20","NA","NA","NA","70","NA","p","593","0","130","NA","NA","NA","1","400","100"
"3","71","2","1","yes","39","NA","7","2","80","NA","NA","NA","90","NA","l","1191","0","130","NA","NA","NA","4","200","400"
"3","66","3","1","no","39","NA","7","2","50","NA","NA","NA","80","NA","l","910","1","130","NA","NA","NA","1","500","300"
"3","73","2","1","yes","39","NA","7","2","60","NA","NA","NA","70","NA","p","949","1","130","NA","NA","NA","4","200","400"
"3","52","4","1","no","39","NA","7","2","30","NA","NA","NA","100","NA","p","1367","0","130","NA","NA","NA","2","300","100"
"3","64","2","1","no","39","NA","7","2","50","NA","NA","NA","80","NA","l","853","0","130","NA","NA","NA","4","300","200"
"3","11","2","1","no","39","NA","7","2","20","NA","NA","NA","100","NA","l","618","0","130","NA","NA","NA","4","500","100"
"3","32","4","1","no","39","NA","7","2","10","NA","NA","NA","20","NA","p","677","0","130","NA","NA","NA","2","300","200"
"3","58","1","1","no","39","NA","7","2","40","NA","NA","NA","70","NA","p","664","1","130","NA","NA","NA","3","200","100"
"3","19","2","1","no","39","NA","7","2","40","NA","NA","NA","60","NA","l","1244","0","130","NA","NA","NA","4","300","200"
"3","3","1","1","no","39","NA","7","2","10","NA","NA","NA","40","NA","l","1350","0","130","NA","NA","NA","3","400","100"
"3","30","2","1","no","39","NA","7","2","10","NA","NA","NA","20","NA","l","726","0","130","NA","NA","NA","4","300","100"
"3","55","3","1","no","39","NA","7","2","30","NA","NA","NA","70","NA","p","879","0","130","NA","NA","NA","1","500","200"
"3","65","3","1","no","39","NA","7","2","50","NA","NA","NA","70","NA","p","537","0","130","NA","NA","NA","1","400","300"
"3","1","1","1","no","39","NA","7","2","10","NA","NA","NA","20","NA","l","970","0","130","NA","NA","NA","3","200","100"
"3","42","4","1","no","39","NA","7","2","20","NA","NA","NA","50","NA","l","1063","1","130","NA","NA","NA","2","300","100"
"3","9","3","1","no","39","NA","7","2","20","NA","NA","NA","80","NA","p","684","0","130","NA","NA","NA","1","400","100"
"3","60","1","1","no","39","NA","7","2","40","NA","NA","NA","50","NA","l","726","0","130","NA","NA","NA","3","400","300"
"3","47","3","1","no","39","NA","7","2","20","NA","NA","NA","90","NA","p","887","0","130","NA","NA","NA","1","500","100"
"3","34","2","1","no","39","NA","7","2","10","NA","NA","NA","50","NA","l","696","0","130","NA","NA","NA","4","400","100"
"3","59","4","1","no","39","NA","7","2","40","NA","NA","NA","90","NA","p","2508","0","130","NA","NA","NA","2","200","100"
"3","67","2","1","no","39","NA","7","2","50","NA","NA","NA","60","NA","l","718","0","130","NA","NA","NA","4","500","400"
"3","63","2","1","no","39","NA","7","2","50","NA","NA","NA","70","NA","l","1208","0","130","NA","NA","NA","4","300","200"
"3","2","2","1","no","39","NA","7","2","10","NA","NA","NA","30","NA","l","605","0","130","NA","NA","NA","4","300","100"
"3","22","4","1","no","39","NA","7","2","40","NA","NA","NA","50","NA","p","795","0","130","NA","NA","NA","2","500","400"
"3","13","4","1","no","39","NA","7","2","30","NA","NA","NA","60","NA","p","841","0","130","NA","NA","NA","2","200","100"
"3","74","1","1","yes","39","NA","7","2","50","NA","NA","NA","60","NA","l","1277","0","130","NA","NA","NA","3","300","400"
"3","33","4","1","no","39","NA","7","2","10","NA","NA","NA","30","NA","p","894","0","130","NA","NA","NA","2","400","100"
"3","68","1","1","no","39","NA","7","2","70","NA","NA","NA","100","NA","l","1378","0","130","NA","NA","NA","3","300","200"
"3","43","3","1","no","39","NA","7","2","20","NA","NA","NA","70","NA","p","896","0","130","NA","NA","NA","1","300","100"
"3","31","1","1","no","39","NA","7","2","10","NA","NA","NA","40","NA","l","602","0","130","NA","NA","NA","3","300","100"
"3","23","2","1","no","39","NA","7","2","50","NA","NA","NA","100","NA","l","1896","0","130","NA","NA","NA","4","200","100"
"3","69","1","1","no","39","NA","7","2","70","NA","NA","NA","90","NA","l","1523","0","130","NA","NA","NA","3","400","300"
"3","25","3","1","no","39","NA","7","2","60","NA","NA","NA","90","NA","p","602","0","130","NA","NA","NA","1","300","200"
"3","4","3","1","no","39","NA","7","2","10","NA","NA","NA","20","NA","p","719","0","130","NA","NA","NA","1","400","200"
"3","15","3","1","no","39","NA","7","2","30","NA","NA","NA","60","NA","p","824","0","130","NA","NA","NA","1","400","200"
"3","70","1","1","no","39","NA","7","2","70","NA","NA","NA","90","NA","l","869","0","130","NA","NA","NA","3","500","400"
"3","36","1","1","no","39","NA","7","2","10","NA","NA","NA","60","NA","l","848","0","130","NA","NA","NA","3","500","100"
"3","40","4","1","no","39","NA","7","2","20","NA","NA","NA","30","NA","p","1444","0","130","NA","NA","NA","2","200","100"
"3","49","2","1","no","39","NA","7","2","30","NA","NA","NA","50","NA","l","1197","0","130","NA","NA","NA","4","200","100"
"3","27","1","1","no","39","NA","7","2","60","NA","NA","NA","100","NA","l","1220","0","130","NA","NA","NA","3","500","300"
"3","46","1","1","no","39","NA","7","2","20","NA","NA","NA","30","NA","l","851","0","130","NA","NA","NA","3","400","300"
"3","72","1","1","yes","39","NA","7","2","70","NA","NA","NA","80","NA","l","550","0","130","NA","NA","NA","3","300","400"
"3","7","4","1","no","39","NA","7","2","20","NA","NA","NA","60","NA","p","1382","0","130","NA","NA","NA","2","300","100"
"3","5","4","1","no","39","NA","7","2","10","NA","NA","NA","50","NA","p","3380","0","130","NA","NA","NA","2","500","100"
"3","28","3","1","no","39","NA","7","2","80","NA","NA","NA","100","NA","p","2211","0","130","NA","NA","NA","1","500","400"
"3","29","2","1","no","39","NA","7","2","10","NA","NA","NA","30","NA","l","1432","0","130","NA","NA","NA","4","200","100"
"3","8","4","1","no","39","NA","7","2","20","NA","NA","NA","30","NA","p","1165","0","130","NA","NA","NA","2","300","200"
"3","10","4","1","no","39","NA","7","2","20","NA","NA","NA","40","NA","p","1323","0","130","NA","NA","NA","2","400","200"
"3","75","4","1","yes","39","NA","7","2","40","NA","NA","NA","50","NA","p","1300","0","130","NA","NA","NA","2","200","400"
"3","17","2","1","no","39","NA","7","2","30","NA","NA","NA","50","NA","l","707","0","130","NA","NA","NA","4","500","300"
"3","53","2","1","no","39","NA","7","2","30","NA","NA","NA","40","NA","l","1564","0","130","NA","NA","NA","4","300","200"
"3","50","4","1","no","39","NA","7","2","30","NA","NA","NA","70","NA","p","846","0","130","NA","NA","NA","2","200","100"
"3","20","4","1","no","39","NA","7","2","40","NA","NA","NA","80","NA","p","1145","0","130","NA","NA","NA","2","400","200"
"3","18","3","1","no","39","NA","7","2","40","NA","NA","NA","80","NA","p","617","0","130","NA","NA","NA","1","200","100"
"3","35","1","1","no","39","NA","7","2","10","NA","NA","NA","40","NA","l","765","0","130","NA","NA","NA","3","500","100"
"3","51","3","1","no","39","NA","7","2","30","NA","NA","NA","80","NA","p","661","0","130","NA","NA","NA","1","300","100"
"3","51","3","1","no","39","100","7","2","30","20","-300","0","80","1.5","space","12545","0","130","60","100","100","1","300","100"
