"CBcond","Gamble","X_location","domain","dominated","first_gamble_trial","game_winnings","orderA","orderB","p","primary_odds","primary_stakes","primary_winnings","q","real_winnings","response","response_time","risk_selected","second_gamble_trial","secondary_odds","secondary_stakes","secondary_winnings","version","x","y"
"2","21","3","1","no","3","NA","2","1","40","NA","NA","NA","100","NA","p","3688","0","115","NA","NA","NA","2","500","200"
"2","54","2","1","no","3","NA","2","1","30","NA","NA","NA","50","NA","l","2138","0","115","NA","NA","NA","1","300","200"
"2","5","3","1","no","3","NA","2","1","10","NA","NA","NA","50","NA","p","2123","0","115","NA","NA","NA","2","500","100"
"2","9","2","1","no","3","NA","2","1","20","NA","NA","NA","80","NA","l","4251","0","115","NA","NA","NA","1","400","100"
"2","38","4","1","no","3","NA","2","1","10","NA","NA","NA","30","NA","p","3934","0","115","NA","NA","NA","3","500","200"
"2","2","1","1","no","3","NA","2","1","10","NA","NA","NA","30","NA","p","5678","1","115","NA","NA","NA","4","300","100"
"2","49","1","1","no","3","NA","2","1","30","NA","NA","NA","50","NA","l","4304","0","115","NA","NA","NA","4","200","100"
"2","22","3","1","no","3","NA","2","1","40","NA","NA","NA","50","NA","p","6394","0","115","NA","NA","NA","2","500","400"
"2","41","2","1","no","3","NA","2","1","20","NA","NA","NA","50","NA","l","7152","0","115","NA","NA","NA","1","200","100"
"2","6","4","1","no","3","NA","2","1","20","NA","NA","NA","40","NA","p","5896","0","115","NA","NA","NA","3","200","100"
"2","40","3","1","no","3","NA","2","1","20","NA","NA","NA","30","NA","l","4601","1","115","NA","NA","NA","2","200","100"
"2","67","1","1","no","3","NA","2","1","50","NA","NA","NA","60","NA","l","6647","0","115","NA","NA","NA","4","500","400"
"2","26","2","1","no","3","NA","2","1","60","NA","NA","NA","80","NA","l","12540","0","115","NA","NA","NA","1","400","300"
"2","14","1","1","no","3","NA","2","1","30","NA","NA","NA","90","NA","l","1755","0","115","NA","NA","NA","4","300","100"
"2","29","1","1","no","3","NA","2","1","10","NA","NA","NA","30","NA","l","4523","0","115","NA","NA","NA","4","200","100"
"2","58","4","1","no","3","NA","2","1","40","NA","NA","NA","70","NA","p","9308","0","115","NA","NA","NA","3","200","100"
"2","47","2","1","no","3","NA","2","1","20","NA","NA","NA","90","NA","l","1611","0","115","NA","NA","NA","1","500","100"
"2","71","1","1","yes","3","NA","2","1","80","NA","NA","NA","90","NA","l","3273","0","115","NA","NA","NA","4","200","400"
"2","69","4","1","no","3","NA","2","1","70","NA","NA","NA","90","NA","p","5860","0","115","NA","NA","NA","3","400","300"
"2","3","4","1","no","3","NA","2","1","10","NA","NA","NA","40","NA","p","8303","0","115","NA","NA","NA","3","400","100"
"2","74","4","1","yes","3","NA","2","1","50","NA","NA","NA","60","NA","l","4714","1","115","NA","NA","NA","3","300","400"
"2","11","1","1","no","3","NA","2","1","20","NA","NA","NA","100","NA","p","2729","1","115","NA","NA","NA","4","500","100"
"2","24","1","1","no","3","NA","2","1","50","NA","NA","NA","100","NA","l","5777","0","115","NA","NA","NA","4","400","200"
"2","15","2","1","no","3","NA","2","1","30","NA","NA","NA","60","NA","l","4288","0","115","NA","NA","NA","1","400","200"
"2","62","4","1","no","3","NA","2","1","50","NA","NA","NA","90","NA","p","1627","0","115","NA","NA","NA","3","200","100"
"2","73","1","1","yes","3","NA","2","1","60","NA","NA","NA","70","NA","l","1279","0","115","NA","NA","NA","4","200","400"
"2","12","3","1","no","3","NA","2","1","20","NA","NA","NA","50","NA","p","1383","0","115","NA","NA","NA","2","500","200"
"2","20","3","1","no","3","NA","2","1","40","NA","NA","NA","80","NA","p","1942","0","115","NA","NA","NA","2","400","200"
"2","30","1","1","no","3","NA","2","1","10","NA","NA","NA","20","NA","p","2878","1","115","NA","NA","NA","4","300","100"
"2","42","3","1","no","3","NA","2","1","20","NA","NA","NA","50","NA","p","5705","0","115","NA","NA","NA","2","300","100"
"2","59","3","1","no","3","NA","2","1","40","NA","NA","NA","90","NA","p","2361","0","115","NA","NA","NA","2","200","100"
"2","44","2","1","no","3","NA","2","1","20","NA","NA","NA","70","NA","l","3888","0","115","NA","NA","NA","1","400","100"
"2","61","3","1","no","3","NA","2","1","40","NA","NA","NA","70","NA","p","3251","0","115","NA","NA","NA","2","500","300"
"2","43","2","1","no","3","NA","2","1","20","NA","NA","NA","70","NA","l","3342","0","115","NA","NA","NA","1","300","100"
"2","37","4","1","no","3","NA","2","1","10","NA","NA","NA","20","NA","l","5710","1","115","NA","NA","NA","3","500","200"
"2","7","3","1","no","3","NA","2","1","20","NA","NA","NA","60","NA","p","5806","0","115","NA","NA","NA","2","300","100"
"2","48","3","1","no","3","NA","2","1","20","NA","NA","NA","30","NA","l","5499","1","115","NA","NA","NA","2","500","300"
"2","27","4","1","no","3","NA","2","1","60","NA","NA","NA","100","NA","p","1541","0","115","NA","NA","NA","3","500","300"
"2","10","3","1","no","3","NA","2","1","20","NA","NA","NA","40","NA","p","7043","0","115","NA","NA","NA","2","400","200"
"2","70","4","1","no","3","NA","2","1","70","NA","NA","NA","90","NA","p","2833","0","115","NA","NA","NA","3","500","400"
"2","18","2","1","no","3","NA","2","1","40","NA","NA","NA","80","NA","l","2532","0","115","NA","NA","NA","1","200","100"
"2","60","4","1","no","3","NA","2","1","40","NA","NA","NA","50","NA","p","4644","0","115","NA","NA","NA","3","400","300"
"2","19","1","1","no","3","NA","2","1","40","NA","NA","NA","60","NA","l","4761","0","115","NA","NA","NA","4","300","200"
"2","17","1","1","no","3","NA","2","1","30","NA","NA","NA","50","NA","l","9934","0","115","NA","NA","NA","4","500","300"
"2","68","4","1","no","3","NA","2","1","70","NA","NA","NA","100","NA","p","1720","0","115","NA","NA","NA","3","300","200"
"2","1","4","1","no","3","NA","2","1","10","NA","NA","NA","20","NA","l","1793","1","115","NA","NA","NA","3","200","100"
"2","51","2","1","no","3","NA","2","1","30","NA","NA","NA","80","NA","l","1287","0","115","NA","NA","NA","1","300","100"
"2","66","2","1","no","3","NA","2","1","50","NA","NA","NA","80","NA","l","2978","0","115","NA","NA","NA","1","500","300"
"2","52","3","1","no","3","NA","2","1","30","NA","NA","NA","100","NA","p","1488","0","115","NA","NA","NA","2","300","100"
"2","35","4","1","no","3","NA","2","1","10","NA","NA","NA","40","NA","p","6234","0","115","NA","NA","NA","3","500","100"
"2","32","3","1","no","3","NA","2","1","10","NA","NA","NA","20","NA","p","3525","0","115","NA","NA","NA","2","300","200"
"2","50","3","1","no","3","NA","2","1","30","NA","NA","NA","70","NA","p","6261","0","115","NA","NA","NA","2","200","100"
"2","8","3","1","no","3","NA","2","1","20","NA","NA","NA","30","NA","p","14672","0","115","NA","NA","NA","2","300","200"
"2","16","2","1","no","3","NA","2","1","30","NA","NA","NA","40","NA","p","2764","1","115","NA","NA","NA","1","400","300"
"2","28","2","1","no","3","NA","2","1","80","NA","NA","NA","100","NA","l","1108","0","115","NA","NA","NA","1","500","400"
"2","46","4","1","no","3","NA","2","1","20","NA","NA","NA","30","NA","p","6242","0","115","NA","NA","NA","3","400","300"
"2","75","3","1","yes","3","NA","2","1","40","NA","NA","NA","50","NA","p","6200","0","115","NA","NA","NA","2","200","400"
"2","34","1","1","no","3","NA","2","1","10","NA","NA","NA","50","NA","l","2440","0","115","NA","NA","NA","4","400","100"
"2","33","3","1","no","3","NA","2","1","10","NA","NA","NA","30","NA","p","2299","0","115","NA","NA","NA","2","400","100"
"2","45","1","1","no","3","NA","2","1","20","NA","NA","NA","90","NA","l","1381","0","115","NA","NA","NA","4","400","100"
"2","36","4","1","no","3","NA","2","1","10","NA","NA","NA","60","NA","p","4963","0","115","NA","NA","NA","3","500","100"
"2","53","1","1","no","3","NA","2","1","30","NA","NA","NA","40","NA","l","7690","0","115","NA","NA","NA","4","300","200"
"2","72","4","1","yes","3","NA","2","1","70","NA","NA","NA","80","NA","p","5124","0","115","NA","NA","NA","3","300","400"
"2","63","1","1","no","3","NA","2","1","50","NA","NA","NA","70","NA","l","1813","0","115","NA","NA","NA","4","300","200"
"2","31","4","1","no","3","NA","2","1","10","NA","NA","NA","40","NA","p","1947","0","115","NA","NA","NA","3","300","100"
"2","23","1","1","no","3","NA","2","1","50","NA","NA","NA","100","NA","l","2188","0","115","NA","NA","NA","4","200","100"
"2","13","3","1","no","3","NA","2","1","30","NA","NA","NA","60","NA","p","2298","0","115","NA","NA","NA","2","200","100"
"2","55","2","1","no","3","NA","2","1","30","NA","NA","NA","70","NA","l","2652","0","115","NA","NA","NA","1","500","200"
"2","25","2","1","no","3","NA","2","1","60","NA","NA","NA","90","NA","l","2206","0","115","NA","NA","NA","1","300","200"
"2","64","1","1","no","3","NA","2","1","50","NA","NA","NA","80","NA","l","2148","0","115","NA","NA","NA","4","300","200"
"2","4","2","1","no","3","NA","2","1","10","NA","NA","NA","20","NA","p","3204","1","115","NA","NA","NA","1","400","200"
"2","57","4","1","no","3","NA","2","1","30","NA","NA","NA","40","NA","p","2786","0","115","NA","NA","NA","3","500","400"
"2","56","1","1","no","3","NA","2","1","30","NA","NA","NA","80","NA","l","1745","0","115","NA","NA","NA","4","500","200"
"2","39","2","1","no","3","NA","2","1","10","NA","NA","NA","20","NA","p","8594","1","115","NA","NA","NA","1","500","300"
"2","65","2","1","no","3","NA","2","1","50","NA","NA","NA","70","NA","l","6592","0","115","NA","NA","NA","1","400","300"
"2","57","2","2","no","3","NA","2","1","30","NA","NA","NA","40","NA","p","6985","1","115","NA","NA","NA","3","500","400"
"2","24","3","2","no","3","NA","2","1","50","NA","NA","NA","100","NA","l","4702","1","115","NA","NA","NA","4","400","200"
"2","7","1","2","no","3","NA","2","1","20","NA","NA","NA","60","NA","p","3552","1","115","NA","NA","NA","2","300","100"
"2","18","4","2","no","3","NA","2","1","40","NA","NA","NA","80","NA","l","3008","1","115","NA","NA","NA","1","200","100"
"2","66","4","2","no","3","NA","2","1","50","NA","NA","NA","80","NA","p","7799","0","115","NA","NA","NA","1","500","300"
"2","39","4","2","no","3","NA","2","1","10","NA","NA","NA","20","NA","l","2964","1","115","NA","NA","NA","1","500","300"
"2","2","3","2","no","3","NA","2","1","10","NA","NA","NA","30","NA","l","2003","1","115","NA","NA","NA","4","300","100"
"2","41","4","2","no","3","NA","2","1","20","NA","NA","NA","50","NA","l","4865","1","115","NA","NA","NA","1","200","100"
"2","34","3","2","no","3","NA","2","1","10","NA","NA","NA","50","NA","p","3196","0","115","NA","NA","NA","4","400","100"
"2","61","1","2","no","3","NA","2","1","40","NA","NA","NA","70","NA","p","4105","1","115","NA","NA","NA","2","500","300"
"2","56","3","2","no","3","NA","2","1","30","NA","NA","NA","80","NA","l","6275","1","115","NA","NA","NA","4","500","200"
"2","13","1","2","no","3","NA","2","1","30","NA","NA","NA","60","NA","l","3900","0","115","NA","NA","NA","2","200","100"
"2","74","2","2","yes","3","NA","2","1","50","NA","NA","NA","60","NA","p","5735","1","115","NA","NA","NA","3","300","400"
"2","64","3","2","no","3","NA","2","1","50","NA","NA","NA","80","NA","p","4361","0","115","NA","NA","NA","4","300","200"
"2","19","3","2","no","3","NA","2","1","40","NA","NA","NA","60","NA","l","2696","1","115","NA","NA","NA","4","300","200"
"2","11","3","2","no","3","NA","2","1","20","NA","NA","NA","100","NA","l","3338","1","115","NA","NA","NA","4","500","100"
"2","38","2","2","no","3","NA","2","1","10","NA","NA","NA","30","NA","p","11666","1","115","NA","NA","NA","3","500","200"
"2","72","2","2","yes","3","NA","2","1","70","NA","NA","NA","80","NA","p","8679","1","115","NA","NA","NA","3","300","400"
"2","65","4","2","no","3","NA","2","1","50","NA","NA","NA","70","NA","l","2681","1","115","NA","NA","NA","1","400","300"
"2","51","4","2","no","3","NA","2","1","30","NA","NA","NA","80","NA","l","4444","1","115","NA","NA","NA","1","300","100"
"2","12","1","2","no","3","NA","2","1","20","NA","NA","NA","50","NA","p","3160","1","115","NA","NA","NA","2","500","200"
"2","52","1","2","no","3","NA","2","1","30","NA","NA","NA","100","NA","p","4367","1","115","NA","NA","NA","2","300","100"
"2","45","3","2","no","3","NA","2","1","20","NA","NA","NA","90","NA","l","2616","1","115","NA","NA","NA","4","400","100"
"2","4","4","2","no","3","NA","2","1","10","NA","NA","NA","20","NA","p","3446","0","115","NA","NA","NA","1","400","200"
"2","43","4","2","no","3","NA","2","1","20","NA","NA","NA","70","NA","l","3464","1","115","NA","NA","NA","1","300","100"
"2","21","1","2","no","3","NA","2","1","40","NA","NA","NA","100","NA","p","3386","1","115","NA","NA","NA","2","500","200"
"2","22","1","2","no","3","NA","2","1","40","NA","NA","NA","50","NA","p","7248","1","115","NA","NA","NA","2","500","400"
"2","73","3","2","yes","3","NA","2","1","60","NA","NA","NA","70","NA","l","6605","1","115","NA","NA","NA","4","200","400"
"2","17","3","2","no","3","NA","2","1","30","NA","NA","NA","50","NA","p","5235","0","115","NA","NA","NA","4","500","300"
"2","59","1","2","no","3","NA","2","1","40","NA","NA","NA","90","NA","p","4967","1","115","NA","NA","NA","2","200","100"
"2","36","2","2","no","3","NA","2","1","10","NA","NA","NA","60","NA","p","23405","1","115","NA","NA","NA","3","500","100"
"2","44","4","2","no","3","NA","2","1","20","NA","NA","NA","70","NA","l","4532","1","115","NA","NA","NA","1","400","100"
"2","28","4","2","no","3","NA","2","1","80","NA","NA","NA","100","NA","l","1845","1","115","NA","NA","NA","1","500","400"
"2","69","2","2","no","3","NA","2","1","70","NA","NA","NA","90","NA","l","4728","0","115","NA","NA","NA","3","400","300"
"2","26","4","2","no","3","NA","2","1","60","NA","NA","NA","80","NA","l","4282","1","115","NA","NA","NA","1","400","300"
"2","71","3","2","yes","3","NA","2","1","80","NA","NA","NA","90","NA","p","4226","0","115","NA","NA","NA","4","200","400"
"2","70","2","2","no","3","NA","2","1","70","NA","NA","NA","90","NA","l","6871","0","115","NA","NA","NA","3","500","400"
"2","55","4","2","no","3","NA","2","1","30","NA","NA","NA","70","NA","l","6619","1","115","NA","NA","NA","1","500","200"
"2","9","4","2","no","3","NA","2","1","20","NA","NA","NA","80","NA","p","4046","0","115","NA","NA","NA","1","400","100"
"2","40","1","2","no","3","NA","2","1","20","NA","NA","NA","30","NA","l","6585","0","115","NA","NA","NA","2","200","100"
"2","48","1","2","no","3","NA","2","1","20","NA","NA","NA","30","NA","p","8992","1","115","NA","NA","NA","2","500","300"
"2","1","2","2","no","3","NA","2","1","10","NA","NA","NA","20","NA","l","5158","0","115","NA","NA","NA","3","200","100"
"2","5","1","2","no","3","NA","2","1","10","NA","NA","NA","50","NA","p","10574","1","115","NA","NA","NA","2","500","100"
"2","16","4","2","no","3","NA","2","1","30","NA","NA","NA","40","NA","p","14077","0","115","NA","NA","NA","1","400","300"
"2","10","1","2","no","3","NA","2","1","20","NA","NA","NA","40","NA","l","22703","0","115","NA","NA","NA","2","400","200"
"2","30","3","2","no","3","NA","2","1","10","NA","NA","NA","20","NA","l","3842","1","115","NA","NA","NA","4","300","100"
"2","8","1","2","no","3","NA","2","1","20","NA","NA","NA","30","NA","p","7126","1","115","NA","NA","NA","2","300","200"
"2","53","3","2","no","3","NA","2","1","30","NA","NA","NA","40","NA","l","9176","1","115","NA","NA","NA","4","300","200"
"2","33","1","2","no","3","NA","2","1","10","NA","NA","NA","30","NA","p","4349","1","115","NA","NA","NA","2","400","100"
"2","46","2","2","no","3","NA","2","1","20","NA","NA","NA","30","NA","p","7420","1","115","NA","NA","NA","3","400","300"
"2","68","2","2","no","3","NA","2","1","70","NA","NA","NA","100","NA","p","1538","1","115","NA","NA","NA","3","300","200"
"2","29","3","2","no","3","NA","2","1","10","NA","NA","NA","30","NA","l","1907","1","115","NA","NA","NA","4","200","100"
"2","50","1","2","no","3","NA","2","1","30","NA","NA","NA","70","NA","p","1692","1","115","NA","NA","NA","2","200","100"
"2","62","2","2","no","3","NA","2","1","50","NA","NA","NA","90","NA","p","2963","1","115","NA","NA","NA","3","200","100"
"2","37","2","2","no","3","NA","2","1","10","NA","NA","NA","20","NA","p","2564","1","115","NA","NA","NA","3","500","200"
"2","3","2","2","no","3","NA","2","1","10","NA","NA","NA","40","NA","l","6578","0","115","NA","NA","NA","3","400","100"
"2","20","1","2","no","3","NA","2","1","40","NA","NA","NA","80","NA","p","9935","1","115","NA","NA","NA","2","400","200"
"2","35","2","2","no","3","NA","2","1","10","NA","NA","NA","40","NA","p","8296","1","115","NA","NA","NA","3","500","100"
"2","60","2","2","no","3","NA","2","1","40","NA","NA","NA","50","NA","p","10595","1","115","NA","NA","NA","3","400","300"
"2","14","3","2","no","3","NA","2","1","30","NA","NA","NA","90","NA","l","2857","1","115","NA","NA","NA","4","300","100"
"2","75","1","2","yes","3","NA","2","1","40","NA","NA","NA","50","NA","p","4515","1","115","NA","NA","NA","2","200","400"
"2","23","3","2","no","3","NA","2","1","50","NA","NA","NA","100","NA","l","1574","1","115","NA","NA","NA","4","200","100"
"2","6","2","2","no","3","NA","2","1","20","NA","NA","NA","40","NA","l","3445","0","115","NA","NA","NA","3","200","100"
"2","47","4","2","no","3","NA","2","1","20","NA","NA","NA","90","NA","l","2248","1","115","NA","NA","NA","1","500","100"
"2","32","1","2","no","3","NA","2","1","10","NA","NA","NA","20","NA","p","1924","1","115","NA","NA","NA","2","300","200"
"2","25","4","2","no","3","NA","2","1","60","NA","NA","NA","90","NA","l","4781","1","115","NA","NA","NA","1","300","200"
"2","49","3","2","no","3","NA","2","1","30","NA","NA","NA","50","NA","l","5955","1","115","NA","NA","NA","4","200","100"
"2","31","2","2","no","3","NA","2","1","10","NA","NA","NA","40","NA","p","4483","1","115","NA","NA","NA","3","300","100"
"2","54","4","2","no","3","NA","2","1","30","NA","NA","NA","50","NA","l","3071","1","115","NA","NA","NA","1","300","200"
"2","67","3","2","no","3","NA","2","1","50","NA","NA","NA","60","NA","l","11289","1","115","NA","NA","NA","4","500","400"
"2","63","3","2","no","3","NA","2","1","50","NA","NA","NA","70","NA","l","9516","1","115","NA","NA","NA","4","300","200"
"2","15","4","2","no","3","NA","2","1","30","NA","NA","NA","60","NA","l","11068","1","115","NA","NA","NA","1","400","200"
"2","58","2","2","no","3","NA","2","1","40","NA","NA","NA","70","NA","l","2488","0","115","NA","NA","NA","3","200","100"
"2","27","2","2","no","3","NA","2","1","60","NA","NA","NA","100","NA","p","2210","1","115","NA","NA","NA","3","500","300"
"2","42","1","2","no","3","NA","2","1","20","NA","NA","NA","50","NA","p","1973","1","115","NA","NA","NA","2","300","100"
"2","42","1","2","no","3","-400","2","1","20","80","100","100","50","0.25","space","5760","1","115","20","-500","-500","2","300","100"
